Folder: solar_cell_meas

File: teste
	Cell Parameters	Cell Power (mW/cm2)	Voltage (V)	j (mA/cm2)
Jsc (mA/cm2)	13.8286
Voc (V)	0.88
FF (%)	16.8145
PCE (%)	2.04618
Jsc (mA/cm2)	13.8286
Voc (V)	0.88
FF (%)	16.8145
PCE (%)	2.04618
0		-7.0485	1.11	-13.55
1		-6.24643	1.1	-11.5643
2		-5.69525	1.09	-10.5286
3		-5.24571	1.08	-9.74286
4		-4.84557	1.07	-9.05714
5		-4.452	1.06	-8.37143
6		-4.0875	1.05	-7.77143
7		-3.75143	1.04	-7.20714
8		-3.41739	1.03	-6.62143
9		-3.10371	1.02	-6.06429
10		-2.80996	1.01	-5.53571
11		-2.53571	1.0	-5.05
12		-2.27346	0.99	-4.55
13		-2.0125	0.98	-4.07143
14		-1.75639	0.97	-3.62857
15		-1.52914	0.96	-3.15714
16		-1.30964	0.95	-2.72857
17		-1.11121	0.94	-2.29286
18		-0.896786	0.93	-1.9
19		-0.699857	0.92	-1.5
20		-0.52	0.91	-1.12143
21		-0.347143	0.9	-0.721429
22		-0.193893	0.89	-0.392857
23		-0.0471429	0.88	-0.0928571
24		0.0932143	0.87	0.25
25		0.233429	0.86	0.542857
26		0.349107	0.85	0.864286
27		0.477	0.84	1.17143
28		0.586929	0.83	1.45
29		0.691143	0.82	1.72857
30		0.807107	0.81	2.00714
31		0.905714	0.8	2.28571
32		0.976214	0.79	2.53571
33		1.06693	0.78	2.76429
34		1.1605	0.77	2.99286
35		1.22414	0.76	3.24286
36		1.29643	0.75	3.47143
37		1.3505	0.74	3.67857
38		1.41568	0.73	3.90714
39		1.48371	0.72	4.14286
40		1.52396	0.71	4.33571
41		1.5725	0.7	4.53571
42		1.62889	0.69	4.76429
43		1.69029	0.68	4.97857
44		1.72764	0.67	5.16429
45		1.77729	0.66	5.35714
46		1.81071	0.65	5.55714
47		1.82857	0.64	5.75714
48		1.863	0.63	5.92143
49		1.89764	0.62	6.09286
50		1.91279	0.61	6.30714
51		1.93714	0.6	6.47143
52		1.95543	0.59	6.64286
53		1.97821	0.58	6.8
54		1.995	0.57	6.98571
55		2.006	0.56	7.15
56		2.02911	0.55	7.32857
57		2.02307	0.54	7.5
58		2.04618	0.53	7.68571
59		2.04286	0.52	7.87857
60		2.02907	0.51	7.99286
61		2.04286	0.5	8.17143
62		2.0405	0.49	8.27857
63		2.04514	0.48	8.52857
64		2.0445	0.47	8.72143
65		2.04371	0.46	8.86429
66		2.02179	0.45	8.99286
67		2.01143	0.44	9.16429
68		1.99489	0.43	9.33571
69		1.9875	0.42	9.47143
70		1.97093	0.41	9.57857
71		1.94429	0.4	9.68571
72		1.91657	0.39	9.85714
73		1.89729	0.38	10.0071
74		1.86718	0.37	10.1286
75		1.84371	0.36	10.2857
76		1.81625	0.35	10.35
77		1.78136	0.34	10.5071
78		1.75725	0.33	10.6143
79		1.72	0.32	10.75
80		1.69061	0.31	10.9286
81		1.65643	0.3	11.0143
82		1.61571	0.29	11.1643
83		1.573	0.28	11.2857
84		1.53804	0.27	11.3714
85		1.48943	0.26	11.4857
86		1.45089	0.25	11.6214
87		1.40143	0.24	11.7214
88		1.35782	0.23	11.8071
89		1.31057	0.22	11.9214
90		1.26075	0.21	12.0071
91		1.20857	0.2	12.1143
92		1.16239	0.19	12.2571
93		1.11343	0.18	12.3286
94		1.05946	0.17	12.4143
95		1.00343	0.16	12.5786
96		0.949286	0.15	12.65
97		0.892	0.14	12.75
98		0.836179	0.13	12.8286
99		0.777857	0.12	12.9714
100		0.716571	0.11	12.9857
101		0.655	0.1	13.0786
102		0.593357	0.09	13.1929
103		0.530571	0.08	13.2857
104		0.4675	0.07	13.3429
105		0.401357	0.06	13.4214
106		0.336607	0.05	13.4643
107		0.270571	0.04	13.5357
108		0.203786	0.03	13.6286
109		0.136714	0.02	13.6857
110		0.0688214	0.01	13.7643
111		0.0	0.0	13.8286
112		-0.0694643	-0.01	13.8857
113		-0.139429	-0.02	13.9786
114		-0.210429	-0.03	14.0286
115		-0.281857	-0.04	14.0857
116		-0.353393	-0.05	14.1857
117		-0.425786	-0.06	14.2071
118		-0.4985	-0.07	14.25
119		-0.574	-0.08	14.2857
120		-0.6435	-0.09	14.3571
121		-0.718929	-0.1	14.3857